Time (s),ESC signal (µs),Servo 1 (µs),Servo 2 (µs),Servo 3 (µs),AccX (g),AccY (g),AccZ (g),Torque (N·m),Thrust (N),Voltage (V),Current (A),Motor Electrical Speed (rad/s),Motor Optical Speed (rad/s),Electrical Power (W),Mechanical Power (W),Motor Efficiency (%),Propeller Mech. Efficiency (N/W),Overall Efficiency (N/W),Vibration (g),App message,
0.218553249999322,1000,,,,-0.0625,0.048828125,-0.99384765625,0.0006725797468856507,0.04147649161494064,12.195894897239748,0.05539247205502875,0,0,0.6755608075545909,0,0,0,0,0.066796875,,
0.21894475000109526,1050,,,,-0.04443359375,0.04208984375,-0.9939453125,-0.0006103696504012815,-0.02590503781028687,12.191298985122529,0.20662084816371587,0,0,2.5189763510012266,0,0,0,0,0.06865234375,,
2.203177250001486,1100,,,,-0.0484375,0.04970703125,-1.0041015625,-0.002271591472549376,-0.12724479131690544,12.186045232382721,0.3558028488191529,330.3908274036,0,4.335829697550053,0.7504995548526928,17.309590428690065,0.16959359391888584,0.02934803447023435,0.134765625,,
4.174139250001311,1150,,,,-0.03798828125,0.040625,-1.00458984375,-0.004035106633213325,-0.25163553117472454,12.180046699722663,0.5316632093679619,433.22562693144,0,6.475683288613171,1.7479675256177711,26.99846515307278,0.1439701928085829,0.03886641303364208,0.30546875,,
6.141300000001397,1200,,,,-0.04287109375,0.044921875,-0.99716796875,-0.006634685054937263,-0.4194365015853324,12.169978761863373,0.800509374767324,536.6887449899999,0,9.742181518311313,3.5606842949649646,36.54891160968199,0.11780268465406481,0.04305379909674069,0.22587890625,,
8.107561500001232,1250,,,,-0.04580078125,0.05693359375,-1.00126953125,-0.009210815388945115,-0.6109050910830701,12.158712957891076,1.1123888889681557,633.7639579862399,0,13.525215528301402,5.837052379530199,43.15815994817889,0.104660337784431,0.045169197475841,0.22021484375,,
10.073807750000991,1300,,,,-0.0673828125,0.0345703125,-1.01728515625,-0.01256241768275391,-0.8146622526363912,12.145088819308906,1.468097458876334,719.63415718464,0,17.830173679199607,9.041011138027935,50.70637903907341,0.09010818293572996,0.04569023030314387,0.78388671875,,
12.039888750001417,1350,,,,-0.04501953125,0.03935546875,-1.0103515625,-0.015731952603293062,-1.0375570274100763,12.127842530192265,1.935183519412893,808.960108302,0,23.46960125891163,12.726498951171909,54.226081552650484,0.08152926570761082,0.04420870111766961,0.25380859375,,
14.000575750001241,1400,,,,-0.04326171875,0.04580078125,-1.01337890625,-0.01851942167562786,-1.2421119400689824,12.110605992867653,2.3563449848212072,874.0957959866399,0,28.536765458553145,16.186773626504042,56.72221483076113,0.07677178355230001,0.043526915022908765,0.332421875,,
15.980562500001207,1450,,,,-0.062109375,0.073828125,-1.00185546875,-0.02155539801154921,-1.466366754637133,12.088508427909927,2.869748277181084,954.2064086534399,0,34.690980042050874,20.56759978276909,59.28837621622962,0.07129496764907219,0.04226973530423566,0.23466796875,,
17.963582250001373,1500,,,,-0.03876953125,0.0400390625,-0.99658203125,-0.025124163960661756,-1.7540919428582482,12.063842232534979,3.4752372650861134,1031.8037471973598,0,41.92471799226456,25.923149068065612,61.83327767756341,0.06766522593388781,0.041839609784615296,0.38232421875,,
19.92815875000125,1550,,,,-0.04833984375,0.0337890625,-0.9958984375,-0.030690398700911135,-2.1146091649666294,12.028585481132641,4.2706871992945254,1119.66362174304,0,51.37032854600833,34.363719481798725,66.89436368852049,0.06153713443543899,0.04116454300107211,0.3171875,,
21.917227000001542,1600,,,,-0.044921875,0.06318359375,-0.9966796875,-0.03515181567330841,-2.397460589519956,11.995321404180038,5.039112677391672,1183.1237933457599,0,60.44578338997913,41.58775037051065,68.8015789875598,0.05767330598718271,0.039663398583512824,0.391796875,,
23.9036170000013,1650,,,,-0.0380859375,0.021875,-1.005859375,-0.03834520453410213,-2.6606908778772347,11.959386961459305,5.785623070642723,1241.76685621296,0,69.1925129624845,47.614089323138344,68.81545687712948,0.05591308008436003,0.038453737374006786,0.23115234375,,
25.86630175000159,1700,,,,-0.04951171875,0.06240234375,-1.00419921875,-0.042293442873112506,-3.0188009893999164,11.91331286724186,6.877832054404664,1310.5677353268,0,81.93780203492761,55.42794750917725,67.64922664172926,0.05451269730471015,0.0368438185938516,0.31162109375,,
27.838970750001728,1750,,,,-0.02998046875,0.03916015625,-1.0083984375,-0.04687519834733597,-3.3315526732037,11.862956918406145,7.911332659860454,1391.6208257896799,0,93.85180024931344,65.23131905912373,69.50493061202263,0.05107296953757004,0.03549824332674961,1.43330078125,,
29.79523625000157,1800,,,,-0.02978515625,0.0330078125,-1.00302734375,-0.051301019813649096,-3.684773575680063,11.808834841654242,9.152993521784323,1462.2019407405598,0,108.08618610599815,75.01017226277688,69.39859806275432,0.049123798889855776,0.03409116224013005,1.79560546875,,
31.774215750001645,1850,,,,0.0123046875,-0.0162109375,-0.99716796875,-0.05612393912077794,-4.092582533907092,11.746506493890172,10.554853897740415,1537.60016442696,0,123.98266409860352,86.29885435819143,69.6060050356658,0.04742371477301887,0.03300962844104891,1.26669921875,,
33.767295250001084,1900,,,,-0.04072265625,0.031640625,-1.0005859375,-0.06157925235755807,-4.524575647377214,11.676543223490345,12.18284498981129,1613.31254737872,0,142.25344674385445,99.34679736622827,69.83830243819885,0.04554329023579256,0.031806701212705665,0.6564453125,,
35.74393350000121,1950,,,,-0.09814453125,0.07646484375,-0.99033203125,-0.06643886985444157,-4.849354356894019,11.615426456187086,13.455644348643606,1666.92906200016,0,156.29308402474038,110.74580163563205,70.85832920326584,0.04378822601977592,0.031027442528876938,0.60947265625,,
37.73690925000151,2000,,,,-0.05400390625,0.05166015625,-0.99326171875,-0.07547453619233627,-5.572877385583155,11.510775274429577,16.287859721949225,1781.49247410144,0,187.48594600236507,134.45921770183446,71.71727980893056,0.041446626705940334,0.029724353137300343,1.5107421875,,
39.72839175000144,1000,,,,-0.0625,0.04658203125,-0.99248046875,0.0046640391437630735,-0.034440762579419824,11.92776771678467,0.051884609306524186,0,0,0.6188698059980517,0,0,0,0,0.1990234375,,
41.687365750001376,1050,,,,-0.03818359375,0.04619140625,-1.00361328125,0.0032407077983566497,-0.08428263993148737,11.958287267257033,0.19720134422286634,0,0,2.35819545634562,0,0,0,0,0.08212890625,,
43.64616950000105,1100,,,,-0.04580078125,0.05,-1.0076171875,0.0012521027640744066,-0.18768048591205147,11.975503998401198,0.3486433061711728,325.78315817832,0,4.175180590085618,0.4078668746985906,9.76884374426804,0.46022802838177185,0.04495345590588054,0.115234375,,
45.60673950000127,1150,,,,-0.03984375,0.0349609375,-1.0037109375,-0.0013364031565523495,-0.3121071194541321,11.984751769954517,0.528729437032119,427.67547991007996,0,6.33668880132807,0.5715200771955279,9.01898225275023,0.5466628455094028,0.049259390808002006,0.26796875,,
47.59098750000141,1200,,,,-0.037890625,0.04423828125,-1.0001953125,-0.005855551099703949,-0.4666342160707559,11.988419562370481,0.7850468750071092,532.39523503008,0,9.41147168005561,3.117753038663968,33.12696587280976,0.14969776487253336,0.0495818703654196,0.2400390625,,
49.57511875000158,1250,,,,-0.05322265625,0.0552734375,-1.00146484375,-0.008445801490311334,-0.6554501725084931,11.986626828601775,1.0774654780863373,627.7949319444,0,12.915176925761383,5.3018198630333355,41.05181549034716,0.12362701079940613,0.05075180602277119,0.253515625,,
51.54445325000146,1300,,,,-0.023046875,0.05341796875,-1.00703125,-0.011322326248241506,-0.8520539766732574,11.981671300418064,1.4290625918447648,713.03681261208,0,17.122556596890696,8.07287789293269,47.14861348234341,0.10554585476266944,0.04976330272026704,0.60126953125,,
53.54083725000137,1350,,,,-0.06982421875,0.0333984375,-1.01162109375,-0.014579725338809016,-1.0764260630610165,11.971230824563719,1.889843486347536,788.0161572779999,0,22.623752589405182,11.489553614763926,50.784694707676216,0.0937970189500609,0.0475796373699953,0.22509765625,,
55.52516150000114,1400,,,,-0.05537109375,0.0412109375,-0.99697265625,-0.01721001690124259,-1.2620044290369377,11.959482811057677,2.288735677061466,868.6503687203999,0,27.372094718166444,14.950294922560502,54.618901671368405,0.08441340734286315,0.04610567623454597,0.31376953125,,
57.495936500001335,1450,,,,-0.05361328125,0.04248046875,-1.00068359375,-0.020553475888398325,-1.485035804037432,11.94355559240246,2.7995862495932466,941.01171950832,0,33.43701507652981,19.34217775386179,57.8464774955808,0.07677789239632694,0.04441311169038269,0.27333984375,,
59.46239950000104,1500,,,,-0.04892578125,0.04814453125,-1.00234375,-0.02305726514099008,-1.7130188988885755,11.923539920746325,3.337530781532476,1010.2314776426399,0,39.795180027538656,23.2938385081926,58.534693200237385,0.07354076563407828,0.04304673348193158,0.2875,,
61.432567000001484,1550,,,,-0.03251953125,0.02880859375,-1.00361328125,-0.027974151560761728,-2.0645038997328893,11.892206703427428,4.150719250252893,1092.3317656567199,0,49.36122662762864,30.55774269414126,61.91076576816225,0.06759875520835194,0.04182577935373551,0.389453125,,
63.38286575000154,1600,,,,-0.0423828125,0.04345703125,-1.0068359375,-0.032021375613238284,-2.328132457540314,11.863677984992304,4.891917253913741,1172.3376585684,0,58.036130917818056,37.540707816664714,64.68532238838782,0.06201624180847923,0.040115398056021954,0.4046875,,
65.36069700000128,1650,,,,-0.0271484375,0.05673828125,-1.011328125,-0.03609483166161,-2.591829929908986,11.832493549199516,5.648743975125539,1236.00726968136,0,66.83872988106639,44.612710829833205,66.74696643605378,0.05809627703133387,0.03877750011607851,0.334765625,,
67.32094325000142,1700,,,,-0.034375,0.03857421875,-1.00673828125,-0.04106413845946962,-2.9622337815345743,11.791027144847561,6.726585177298039,1313.1857292047998,0,79.31339095552228,53.92608783227386,67.99728738683426,0.05493177680400075,0.03735197357491921,0.34208984375,,
69.3031505000013,1750,,,,-0.06640625,0.0666015625,-0.99296875,-0.045736457860505064,-3.2612727234448102,11.748727089734384,7.7576489150553325,1369.00135868376,0,91.1425110746281,62.61303255850835,68.69757237653685,0.052109627588701087,0.03578243509939052,0.95634765625,,
71.26566200000131,1800,,,,-0.03955078125,0.06259765625,-1.01748046875,-0.05051713864225967,-3.6311721626245026,11.698238703228512,9.028994162157616,1440.8391106960798,0,105.62326624778488,72.78858757661163,68.91363887316122,0.049925329459367083,0.03437925245264377,2.20458984375,,
73.21994350000126,1850,,,,0.07431640625,-0.0833984375,-1.00732421875,-0.05508552801679593,-4.021720255797442,11.646183525993376,10.363947137765821,1514.98069732104,0,120.70041210894351,83.4564116171982,69.14166734944496,0.048213349761154455,0.03332000165415999,1.21787109375,,
75.18855750000122,1900,,,,-0.04287109375,0.06572265625,-1.01943359375,-0.06046625419902564,-4.455684280758993,11.586502839230384,11.962306917757349,1599.48953970288,0,138.6013144507817,96.7178906477236,69.7814844401241,0.046068898912360094,0.03214754082483698,0.7384765625,,
77.14257500000159,1950,,,,0.05830078125,0.2208984375,-1.0845703125,-0.06521504489059268,-4.787740536067323,11.531403600630444,13.311464357474751,1654.78157040624,0,153.49984896591718,107.91917068961712,70.30586769308638,0.04436424102718409,0.031190645897269824,0.62705078125,,
79.10440325000128,2000,,,,-0.19140625,0.007421875,-1.0275390625,-0.07445114404451214,-5.538903175849743,11.437382463349435,16.217680349614106,1771.3346578547998,0,185.4878399662959,131.87688584470985,71.09744919080286,0.042000597247298016,0.029861318201584292,1.44287109375,,
